USUBJID,AESEQ,AESTDY,AEENDY,AETERM,AEDECOD,AEBODSYS,AESER,AESEV,AEREL,AEOUT,ARM,ARMCD,SBJTSTAT,SAFFL,SAFFN
2009_0062-0002,1,18,23,Vaginal dryness causing itching and/or burning sensation,Vaginal dryness,Reproductive system and breast disorders,N,MILD,Y,RECOVERED/RESOLVED,Placebo,A,Completed,Y,1
2009_0062-0005,1,31,84,Irritation or sores in the lining of the rectum,Rectal mucositis,Gastrointestinal disorders,N,MILD,N,RECOVERING/RESOLVING,Placebo,A,Completed,Y,1
2009_0062-0005,2,54,84,"Formation of a blood clot that plugs the blood vessel; blood clots may break loose and travel to another place, such as the lung",Thromboembolic event,Vascular disorders,N,MILD,N,RECOVERING/RESOLVING,Placebo,A,Completed,Y,1
2009_0062-0008,1,20,84,Excess fluid dripping in the back of the throat and/or the nose,Postnasal drip,"Respiratory, thoracic and mediastina disorders",N,MODERATE,N,RECOVERING/RESOLVING,Placebo,A,Completed,Y,1
2009_0062-0012,1,8,63,"Noticible changes in a persons personality, behavior, and thinking",Personality change,Psychiatric disorders,N,SEVERE,Y,RECOVERED/RESOLVED,Placebo,A,Completed,Y,1
2009_0062-0012,2,62,84,Period of very rapid and regular heartbeats that begins and end suddenly,Paroxysmal atrial tachycardia,Cardiac disorders,N,MILD,N,RECOVERING/RESOLVING,Placebo,A,Completed,Y,1
2009_0062-0012,3,72,84,"Noticible changes in a persons personality, behavior, and thinking",Personality change,Psychiatric disorders,N,MILD,Y,RECOVERING/RESOLVING,Placebo,A,Completed,Y,1
2009_0062-0013,1,66,84,Trying to takes ones own life,Suicide attempt,Psychiatric disorders,N,SEVERE,N,RECOVERING/RESOLVING,Placebo,A,Completed,Y,1
2009_0062-0014,1,58,84,Complete absence of sperm in semen,Azoospermia,Reproductive system and breast disorders,N,MILD,N,RECOVERING/RESOLVING,Placebo,A,Completed,Y,1
2009_0062-0019,1,25,84,Inability to control bowel movements thus allowing the escape o feces from the rectum,Fecal incontinence,Gastrointestinal disorders,Y,MODERATE,Y,RECOVERING/RESOLVING,Placebo,A,Completed,Y,1
2009_0062-0022,1,69,84,Exaggerated feeling of well being,Euphoria,Psychiatric disorders,N,MILD,Y,RECOVERING/RESOLVING,Placebo,A,Completed,Y,1
2009_0062-0024,1,60,84,Tearing or disruption of the ovarian tissue,Ovarian rupture,Reproductive system and breast disorders,N,MILD,Y,RECOVERING/RESOLVING,Placebo,A,Completed,Y,1
2009_0062-0025,1,63,84,Infection of the eye,Eye infection,Infections and infestations,N,MODERATE,N,RECOVERING/RESOLVING,Placebo,A,Completed,Y,1
2009_0062-0026,1,83,84,Unexpected pregnancy,Unintended pregnancy,"Pregnancy, puerperium and perinata conditions",N,MILD,Y,RECOVERING/RESOLVING,Placebo,A,Completed,Y,1
2009_0062-0027,1,2,18,Pain in the gums,Gingival pain,Gastrointestinal disorders,N,MODERATE,Y,RECOVERED/RESOLVED,Placebo,A,Completed,Y,1
2009_0062-0029,1,11,71,Infection caused by use of a catheter,Catheter related infection,Infections and infestations,N,MILD,Y,RECOVERED/RESOLVED,Placebo,A,Completed,Y,1
2009_0062-0030,1,26,84,Abnormal function of the aortic valve (one of the four valves in th heart),Aortic valve disease,Cardiac disorders,N,MODERATE,N,RECOVERING/RESOLVING,Placebo,A,Completed,Y,1
2009_0062-0031,1,3,13,Inability of the adrenal glands (triangle-shaped glands located on top of the kidneys) to produce a normal quantity of hormones,Adrenal insufficiency,Endocrine disorders,N,MODERATE,Y,RECOVERED/RESOLVED,Placebo,A,Completed,Y,1
2009_0062-0031,2,80,84,Death of soft tissue of the arms,Soft tissue necrosis upper limb,Musculoskeletal and connective tissu disorders,N,MILD,Y,RECOVERING/RESOLVING,Placebo,A,Completed,Y,1
2009_0062-0035,1,12,84,Hole in the bladder,Bladder perforation,Renal and urinary disorders,N,MILD,Y,RECOVERING/RESOLVING,Placebo,A,Completed,Y,1
2009_0062-0035,2,55,84,Heartburn,Dyspepsia,Gastrointestinal disorders,N,MILD,Y,RECOVERING/RESOLVING,Placebo,A,Completed,Y,1
2009_0062-0036,1,60,67,Abnormal hole between part of the urinary system and anothe organ or tissue,Urinary fistula,Renal and urinary disorders,N,MILD,N,RECOVERED/RESOLVED,Placebo,A,Completed,Y,1
2009_0062-0037,1,14,29,Enlarged breasts in males,Gynecomastia,Reproductive system and breast disorders,N,MODERATE,Y,RECOVERED/RESOLVED,Placebo,A,Completed,Y,1
2009_0062-0038,1,10,29,Hole in the stomach,Gastric perforation,Gastrointestinal disorders,N,MODERATE,N,RECOVERED/RESOLVED,Placebo,A,Completed,Y,1
2009_0062-0038,2,13,84,Stomach pain,Stomach pain,Gastrointestinal disorders,N,MODERATE,Y,RECOVERING/RESOLVING,Placebo,A,Completed,Y,1
2009_0062-0039,1,71,84,Problems related to ejaculation,Ejaculation disorder,Reproductive system and breast disorders,N,MILD,N,RECOVERING/RESOLVING,Test drug 70mg,B,Completed,Y,1
2009_0062-0041,1,79,84,Infection of the vulva (external female genitalia,Vulval infection,Infections and infestations,N,MILD,N,RECOVERING/RESOLVING,Test drug 70mg,B,Completed,Y,1
2009_0062-0042,1,6,13,Increased blood level of a liver enzyme (AST/SGOT,Aspartate aminotransferase incr,Investigations,N,MILD,Y,RECOVERED/RESOLVED,Test drug 70mg,B,Completed,Y,1
2009_0062-0045,1,58,84,Infection of both the small and large bowe,Enterocolitis infectious,Infections and infestations,N,MILD,N,RECOVERING/RESOLVING,Test drug 70mg,B,Completed,Y,1
2009_0062-0048,1,13,73,Weakness or paralysis (loss of muscle function) caused by damage to peripheral nerves (those nerves outside of brain and spinal cord),Peripheral motor neuropathy,Nervous system disorders,N,MILD,Y,RECOVERED/RESOLVED,Test drug 70mg,B,Completed,Y,1
2009_0062-0048,2,50,69,Hardening of an area of skin,Skin induration,Skin and subcutaneous tissue disorders,N,MODERATE,N,RECOVERED/RESOLVED,Test drug 70mg,B,Completed,Y,1
2009_0062-0048,3,71,84,Abnormal control of blood sugar leve,Glucose intolerance,Metabolism and nutrition disorders,N,MILD,N,RECOVERING/RESOLVING,Test drug 70mg,B,Completed,Y,1
2009_0062-0049,1,17,70,Hiccups,Hiccups,"Respiratory, thoracic and mediastina disorders",N,SEVERE,N,RECOVERED/RESOLVED,Test drug 70mg,B,Completed,Y,1
2009_0062-0050,1,18,84,Abnormally low urine outpu,Urine output decreased,Investigations,Y,MILD,N,RECOVERING/RESOLVING,Test drug 70mg,B,Completed,Y,1
2009_0062-0052,1,17,55,Abnormally low urine outpu,Urine output decreased,Investigations,Y,MODERATE,Y,RECOVERED/RESOLVED WITH SEQUELAE,Test drug 70mg,B,Completed,Y,1
2009_0062-0052,2,71,78,"Loss of muscle coordination; awkward, uncoordinated walking unsteadiness when walking",Ataxia,Nervous system disorders,N,MODERATE,Y,RECOVERED/RESOLVED,Test drug 70mg,B,Completed,Y,1
2009_0062-0055,1,34,46,Leakage from bladder due to breakdown of a bladder anastomosis (surgical connection between two body structures),Bladder anastomotic leak,"Injury, poisoning and procedural complications",N,MILD,Y,RECOVERED/RESOLVED,Test drug 70mg,B,Completed,Y,1
2009_0062-0056,1,27,72,Leakage from bladder due to breakdown of a bladder anastomosis (surgical connection between two body structures),Bladder anastomotic leak,"Injury, poisoning and procedural complications",N,MILD,N,RECOVERED/RESOLVED,Test drug 70mg,B,Completed,Y,1
2009_0062-0060,1,16,84,Blockage of or in the voice box,Laryngeal obstruction,"Respiratory, thoracic and mediastina disorders",N,MILD,N,RECOVERING/RESOLVING,Test drug 70mg,B,Completed,Y,1
2009_0062-0061,1,2,84,Taste changes,Dysgeusia,Nervous system disorders,N,MILD,N,RECOVERING/RESOLVING,Test drug 70mg,B,Completed,Y,1
2009_0062-0062,1,13,82,Infection of the duodenum (area of small bowel,Duodenal infection,Infections and infestations,N,MODERATE,N,RECOVERED/RESOLVED,Test drug 70mg,B,Completed,Y,1
2009_0062-0062,2,73,79,Problem that occurs when putting in a catheter or gaining access t a blood vessel,Vascular access complication,"Injury, poisoning and procedura complications",N,MILD,N,RECOVERED/RESOLVED,Test drug 70mg,B,Completed,Y,1
2009_0062-0063,1,24,84,Increased blood level of sodium,Hypernatremia,Metabolism and nutrition disorders,N,MILD,Y,RECOVERING/RESOLVING,Test drug 70mg,B,Completed,Y,1
2009_0062-0063,2,72,84,Leakage from the vagina due to breakdown of a anastomosi (surgical connection between two body structures),Vaginal anastomotic leak,"Injury, poisoning and procedura complications",N,MILD,N,RECOVERING/RESOLVING,Test drug 70mg,B,Completed,Y,1
2009_0062-0065,1,43,84,Abnormally low urine outpu,Urine output decreased,Investigations,N,MILD,N,RECOVERING/RESOLVING,Test drug 70mg,B,Completed,Y,1
2009_0062-0065,2,62,84,Death of liver tissue,Hepatic necrosis,Hepatobiliary disorders,N,MILD,N,RECOVERING/RESOLVING,Test drug 70mg,B,Completed,Y,1
2009_0062-0068,1,25,79,Decreased blood level of sodium,Hyponatremia,Metabolism and nutrition disorders,N,MILD,Y,RECOVERED/RESOLVED,Test drug 70mg,B,Completed,Y,1
2009_0062-0068,2,77,84,Damage to a blood vessel that carries blood from the heart durin surgery,Intraoperative arterial injury,"Injury, poisoning and procedura complications",N,MILD,Y,RECOVERING/RESOLVING,Test drug 70mg,B,Completed,Y,1
2009_0062-0069,1,5,50,Liver failure,Hepatic failure,Hepatobiliary disorders,N,MILD,N,RECOVERED/RESOLVED,Test drug 70mg,B,Completed,Y,1
2009_0062-0069,2,64,84,Problem characterized by signs that resemble Cushing's disease o syndrome due to too much steroids,Cushingoid,Endocrine disorders,N,MILD,Y,RECOVERING/RESOLVING,Test drug 70mg,B,Completed,Y,1
2009_0062-0070,1,52,84,Blockage of the small bowe,Small intestinal obstruction,Gastrointestinal disorders,Y,MODERATE,Y,RECOVERING/RESOLVING,Test drug 70mg,B,Completed,Y,1
2009_0062-0071,1,50,66,Development of male physical characteristics in females,Virilization,Endocrine disorders,N,MODERATE,N,RECOVERED/RESOLVED,Test drug 70mg,B,Completed,Y,1
2009_0062-0072,1,69,84,Bleeding in or from the pancreas,Pancreatic hemorrhage,Gastrointestinal disorders,N,MILD,Y,RECOVERING/RESOLVING,Test drug 70mg,B,Completed,Y,1
2009_0062-0073,1,13,84,Joint infection,Joint infection,Infections and infestations,N,SEVERE,N,RECOVERING/RESOLVING,Test drug 70mg,B,Completed,Y,1
2009_0062-0074,1,80,84,Uncontrolled contractions of the muscles of the vocal cords,Laryngospasm,"Respiratory, thoracic and mediastina disorders",N,MILD,Y,RECOVERING/RESOLVING,Test drug 70mg,B,Completed,Y,1
2009_0062-0079,1,16,84,Swelling of tissues due to excessive collection of lymph (the clea fluid that is collected from tissues throughout the body) due to a block,Lymphedema,Vascular disorders,N,SEVERE,Y,RECOVERING/RESOLVING,Test drug 140mg,C,Completed,Y,1
2009_0062-0080,1,57,84,Muscle weakness of the right side of the body,Muscle weakness right-sided,Musculoskeletal and connective tissu disorders,N,MODERATE,N,RECOVERING/RESOLVING,Test drug 140mg,C,Completed,Y,1
2009_0062-0081,1,30,83,Decreased movement or sensation in the arm due to nerve problem,Brachial plexopathy,Nervous system disorders,N,SEVERE,N,RECOVERED/RESOLVED,Test drug 140mg,C,Completed,Y,1
2009_0062-0082,1,79,79,Premature opening of a wound along surgical stitches after surgery,Wound dehiscence,"Injury, poisoning and procedura complications",N,MILD,N,RECOVERED/RESOLVED,Test drug 140mg,C,Completed,Y,1
2009_0062-0083,1,45,57,Muscle weakness of the left side of the body,Muscle weakness left-sided,Musculoskeletal and connective tissu disorders,N,MILD,N,RECOVERED/RESOLVED,Test drug 140mg,C,Completed,Y,1
2009_0062-0085,1,14,84,Brain and spinal cord infection,Encephalomyelitis infection,Infections and infestations,N,MILD,Y,RECOVERING/RESOLVING,Test drug 140mg,C,Completed,Y,1
2009_0062-0086,1,19,84,Damage to the spleen during surgery,Intraoperative splenic injury,"Injury, poisoning and procedura complications",N,MILD,N,RECOVERING/RESOLVING,Test drug 140mg,C,Completed,Y,1
2009_0062-0087,1,21,84,Presence of free hemoglobin (the blood protein that carries oxygen in the urine,Hemoglobinuria,Renal and urinary disorders,N,MILD,N,RECOVERING/RESOLVING,Test drug 140mg,C,Completed,Y,1
2009_0062-0088,1,27,84,Complete absence of sperm in semen,Azoospermia,Reproductive system and breast disorders,N,MILD,N,RECOVERING/RESOLVING,Test drug 140mg,C,Completed,Y,1
2009_0062-0088,2,81,84,Increased number of white blood cells (leukocytes) in the peripher blood,Leukocytosis,Blood and lymphatic system disorders,N,SEVERE,N,RECOVERING/RESOLVING,Test drug 140mg,C,Completed,Y,1
2009_0062-0089,1,8,38,Severe reaction of the skin and gut lining  that may include rash an shedding or death of tissue,Erythema multiforme,Skin and subcutaneous tissue disorders,N,MODERATE,Y,RECOVERED/RESOLVED,Test drug 140mg,C,Completed,Y,1
2009_0062-0089,2,43,84,Feeling of fullness and tightness in the bell,Bloating,Gastrointestinal disorders,N,MODERATE,Y,RECOVERING/RESOLVING,Test drug 140mg,C,Completed,Y,1
2009_0062-0089,3,58,74,Leakage from the vagina due to breakdown of a anastomosi (surgical connection between two body structures),Vaginal anastomotic leak,"Injury, poisoning and procedura complications",N,MODERATE,N,RECOVERED/RESOLVED,Test drug 140mg,C,Completed,Y,1
2009_0062-0089,4,59,62,Problems related to ejaculation,Ejaculation disorder,Reproductive system and breast disorders,N,MILD,Y,RECOVERED/RESOLVED,Test drug 140mg,C,Completed,Y,1
2009_0062-0090,1,12,58,Bladder infection,Bladder infection,Infections and infestations,N,MILD,N,RECOVERED/RESOLVED,Test drug 140mg,C,Completed,Y,1
2009_0062-0091,1,45,84,Increased need to urinate,Urinary urgency,Renal and urinary disorders,N,MODERATE,N,RECOVERING/RESOLVING,Test drug 140mg,C,Completed,Y,1
2009_0062-0091,2,69,84,Infection of the eye,Eye infection,Infections and infestations,N,MODERATE,Y,RECOVERING/RESOLVING,Test drug 140mg,C,Completed,Y,1
2009_0062-0094,1,21,84,Decreased blood sugar level,Hypoglycemia,Metabolism and nutrition disorders,Y,MILD,N,RECOVERING/RESOLVING,Test drug 140mg,C,Completed,Y,1
2009_0062-0094,2,57,72,Hole in the bladder,Bladder perforation,Renal and urinary disorders,N,MILD,N,RECOVERED/RESOLVED,Test drug 140mg,C,Completed,Y,1
2009_0062-0096,1,15,84,Liver pain,Hepatic pain,Hepatobiliary disorders,N,MODERATE,Y,RECOVERING/RESOLVING,Test drug 140mg,C,Completed,Y,1
2009_0062-0096,2,18,84,Abnormal function of the aortic valve (one of the four valves in th heart),Aortic valve disease,Cardiac disorders,N,MILD,N,RECOVERING/RESOLVING,Test drug 140mg,C,Completed,Y,1
2009_0062-0096,3,25,57,Fall,Fall,"Injury, poisoning and procedura complications",N,MILD,N,RECOVERED/RESOLVED,Test drug 140mg,C,Completed,Y,1
2009_0062-0096,4,27,39,Inflammation (swelling and redness) of the conjunctiva (th membrane that lines the eyelids and covers the exposed surface of the eyeball) c,Conjunctivitis infective,Infections and infestations,N,MODERATE,N,RECOVERED/RESOLVED,Test drug 140mg,C,Completed,Y,1
2009_0062-0096,5,80,84,Abnormality of the spleen,Spleen disorder,Blood and lymphatic system disorders,N,MILD,Y,RECOVERING/RESOLVING,Test drug 140mg,C,Completed,Y,1
2009_0062-0097,1,4,84,Decreased blood level of sodium,Hyponatremia,Metabolism and nutrition disorders,N,MODERATE,Y,RECOVERING/RESOLVING,Test drug 140mg,C,Completed,Y,1
2009_0062-0097,2,56,84,Narrowing of the windpipe,Tracheal stenosis,"Respiratory, thoracic and mediastina disorders",N,MILD,N,RECOVERING/RESOLVING,Test drug 140mg,C,Completed,Y,1
2009_0062-0097,3,72,79,Pain of  the scrotum or its contents (testes),Scrotal pain,Reproductive system and breast disorders,N,SEVERE,Y,RECOVERED/RESOLVED,Test drug 140mg,C,Completed,Y,1
2009_0062-0098,1,41,84,Blockage of the trachea (windpipe),Tracheal obstruction,"Injury, poisoning and procedura complications",N,MILD,N,RECOVERING/RESOLVING,Test drug 140mg,C,Completed,Y,1
2009_0062-0098,2,45,84,Exaggerated feeling of well being,Euphoria,Psychiatric disorders,N,MILD,N,RECOVERING/RESOLVING,Test drug 140mg,C,Completed,Y,1
2009_0062-0099,1,9,84,"Potentially life-threatening condition during a drug infusion which may cause low blood pressure, rash, fever, chills, difficulty breathing",Cytokine release syndrome,Immune system disorders,N,MODERATE,N,RECOVERING/RESOLVING,Test drug 140mg,C,Completed,Y,1
2009_0062-0099,2,34,55,Disease of the teeth or gums,Periodontal disease,Gastrointestinal disorders,N,MILD,Y,RECOVERED/RESOLVED,Test drug 140mg,C,Completed,Y,1
2009_0062-0099,3,43,84,Decreased blood sugar level,Hypoglycemia,Metabolism and nutrition disorders,N,MILD,Y,RECOVERING/RESOLVING,Test drug 140mg,C,Completed,Y,1
2009_0062-0099,4,48,71,Inability to speak,Aphonia,Nervous system disorders,N,MILD,Y,RECOVERED/RESOLVED,Test drug 140mg,C,Completed,Y,1
2009_0062-0101,1,9,84,Exaggerated feeling of well being,Euphoria,Psychiatric disorders,N,SEVERE,Y,RECOVERING/RESOLVING,Test drug 140mg,C,Completed,Y,1
2009_0062-0101,2,61,84,"Reaction that can occur during or following infusion of the drug The reaction may include fever, chills, rash, low blood pressure, and diff",Infusion related reaction,General disorders and administration site conditions,N,MILD,N,RECOVERING/RESOLVING,Test drug 140mg,C,Completed,Y,1
2009_0062-0102,1,41,84,Premature opening of a wound along surgical stitches after surgery,Wound dehiscence,"Injury, poisoning and procedura complications",N,MILD,Y,RECOVERING/RESOLVING,Test drug 140mg,C,Completed,Y,1
2009_0062-0102,2,67,84,Infection of the vulva (external female genitalia,Vulval infection,Infections and infestations,N,MILD,Y,RECOVERING/RESOLVING,Test drug 140mg,C,Completed,Y,1
2009_0062-0103,1,24,84,Dehydration (when your body does not have as much water an fluid as it should),Dehydration,Metabolism and nutrition disorders,N,SEVERE,Y,RECOVERING/RESOLVING,Test drug 140mg,C,Completed,Y,1
2009_0062-0103,2,81,84,Blockage of uterus (womb),Uterine obstruction,Reproductive system and breast disorders,N,MILD,N,RECOVERING/RESOLVING,Test drug 140mg,C,Completed,Y,1
2009_0062-0105,1,49,84,Deformity of the musculoskeletal system (relating to muscles an the skeleton),Musculoskeletal deformity,Musculoskeletal and connective tissu disorders,N,MODERATE,N,RECOVERING/RESOLVING,Test drug 140mg,C,Completed,Y,1
2009_0062-0105,2,73,84,Infection of the lining of the nose,Rhinitis infective,Infections and infestations,N,MILD,Y,RECOVERING/RESOLVING,Test drug 140mg,C,Completed,Y,1
2009_0062-0107,1,8,60,Partial or complete blockage of the small and/or large bowel.  Ileu is a functional rather than actual blockage of the bowel.,Ileus,Gastrointestinal disorders,N,MILD,Y,RECOVERED/RESOLVED,Test drug 140mg,C,Completed,Y,1
2009_0062-0107,2,23,84,"Abnormal drowsiness or sluggishness, an unusual lack of energy",Lethargy,Nervous system disorders,N,MODERATE,Y,RECOVERING/RESOLVING,Test drug 140mg,C,Completed,Y,1
2009_0062-0107,3,28,84,Hole in the bladder,Bladder perforation,Renal and urinary disorders,N,MODERATE,Y,RECOVERING/RESOLVING,Test drug 140mg,C,Completed,Y,1
2009_0062-0110,1,20,51,Hole between the stomach and another organ,Gastric fistula,Gastrointestinal disorders,N,MILD,N,RECOVERED/RESOLVED,Test drug 140mg,C,Completed,Y,1
2009_0062-0112,1,63,66,Stroke caused by decreased blood flow to the brain,Ischemia cerebrovascular,Nervous system disorders,N,MILD,N,RECOVERED/RESOLVED,Test drug 140mg,C,Completed,Y,1
2009_0062-0113,1,18,84,Constipation,Constipation,Gastrointestinal disorders,N,MILD,N,RECOVERING/RESOLVING,Test drug 140mg,C,Completed,Y,1
2009_0062-0115,1,56,84,"bleeding in hemorrhoids (swollen or irritated blood vessels in th anus and rectum, also known as piles)",Hemorrhoidal hemorrhage,Gastrointestinal disorders,Y,MILD,N,RECOVERING/RESOLVING,Test drug 140mg,C,Completed,Y,1
2009_0062-0115,2,75,84,Face pain,Facial pain,General disorders and administration sit conditions,N,MILD,Y,RECOVERING/RESOLVING,Test drug 140mg,C,Completed,Y,1
2009_0062-0118,1,82,84,Destruction or death of tissue of the brain and/or spinal cor,Central nervous system necrosis,Nervous system disorders,N,MILD,N,RECOVERING/RESOLVING,Test drug 210mg,D,Completed,Y,1
2009_0062-0119,1,20,84,Type of pleural effusion (excess fluid in the pleural cavity [(the bod cavity that surrounds the lungs]),Chylothorax,"Respiratory, thoracic and mediastina disorders",N,MODERATE,Y,RECOVERING/RESOLVING,Test drug 210mg,D,Completed,Y,1
2009_0062-0122,1,10,84,Face pain,Facial pain,General disorders and administration sit conditions,N,MILD,N,RECOVERING/RESOLVING,Test drug 210mg,D,Completed,Y,1
2009_0062-0123,1,22,84,Constipation,Constipation,Gastrointestinal disorders,N,MILD,Y,RECOVERING/RESOLVING,Test drug 210mg,D,Completed,Y,1
2009_0062-0123,2,47,84,Destruction or death of tissue of the brain and/or spinal cor,Central nervous system necrosis,Nervous system disorders,N,MILD,N,RECOVERING/RESOLVING,Test drug 210mg,D,Completed,Y,1
2009_0062-0124,1,7,13,Death of tissue of the belly wall,Abdominal soft tissue necrosis,Musculoskeletal and connective tissu disorders,N,MILD,N,RECOVERED/RESOLVED,Test drug 210mg,D,Completed,Y,1
2009_0062-0125,1,32,84,Death of tissue in the esophagus (gullet or the tube that goes fro mouth to stomach through which food passes),Esophageal necrosis,Gastrointestinal disorders,N,MODERATE,N,RECOVERING/RESOLVING,Test drug 210mg,D,Completed,Y,1
2009_0062-0126,1,45,76,Heart attack caused by a blockage or decreased blood supply t the heart,Myocardial infarction,Cardiac disorders,N,MILD,Y,RECOVERED/RESOLVED,Test drug 210mg,D,Completed,Y,1
2009_0062-0126,2,61,84,Blockage of Fallopian tube (tube between ovary to uterus [womb]),Fallopian tube obstruction,Reproductive system and breast disorders,N,MODERATE,Y,RECOVERING/RESOLVING,Test drug 210mg,D,Completed,Y,1
2009_0062-0127,1,20,84,Decreased levels of a blood protein called albumin,Hypoalbuminemia,Metabolism and nutrition disorders,N,MILD,Y,RECOVERING/RESOLVING,Test drug 210mg,D,Completed,Y,1
2009_0062-0127,2,28,84,Feeling of fullness and tightness in the bell,Bloating,Gastrointestinal disorders,N,MILD,Y,RECOVERING/RESOLVING,Test drug 210mg,D,Completed,Y,1
2009_0062-0127,3,31,84,Inflammation (swelling and redness) of the connective tissue surrounding the brain and spinal cord usually a result of infection,Meningitis,Infections and infestations,N,MODERATE,N,RECOVERING/RESOLVING,Test drug 210mg,D,Completed,Y,1
2009_0062-0128,1,46,84,Stomach pain,Stomach pain,Gastrointestinal disorders,N,SEVERE,N,RECOVERING/RESOLVING,Test drug 210mg,D,Completed,Y,1
2009_0062-0128,2,53,84,Involuntary movements,Movements involuntary,Nervous system disorders,N,MILD,Y,RECOVERING/RESOLVING,Test drug 210mg,D,Completed,Y,1
2009_0062-0128,3,72,84,Leakage from the vas deferens (the tube connecting the testes wit the urethra [the tube which connects the bladder to the outside of the bo,Vas deferens anastomotic leak,"Injury, poisoning and procedural complications",N,MILD,N,RECOVERING/RESOLVING,Test drug 210mg,D,Completed,Y,1
2009_0062-0132,1,12,60,Swelling in the brain,Edema cerebral,Nervous system disorders,N,MILD,Y,RECOVERED/RESOLVED,Test drug 210mg,D,Completed,Y,1
2009_0062-0132,2,66,84,Inflammation (swelling and redness) of the skin of outer ear an canal,External ear inflammation,Ear and labyrinth disorders,Y,MODERATE,Y,RECOVERING/RESOLVING,Test drug 210mg,D,Completed,Y,1
2009_0062-0134,1,41,84,Excess amount of gastric juice flowing back (refluxes) into th esophagus (gullet or the tube that goes from mouth to stomach through which,Gastroesophageal reflux disease,Gastrointestinal disorders,N,MILD,N,RECOVERING/RESOLVING,Test drug 210mg,D,Completed,Y,1
2009_0062-0136,1,53,84,Presence of free hemoglobin (the blood protein that carries oxygen in the urine,Hemoglobinuria,Renal and urinary disorders,N,MILD,N,RECOVERING/RESOLVING,Test drug 210mg,D,Completed,Y,1
2009_0062-0136,2,70,84,"Partial paralysis or loss of muscle function (paresis) of the stomac (""gastro-""), resulting in food remaining in the stomach for a longer p",Gastroparesis,Gastrointestinal disorders,N,MODERATE,N,RECOVERING/RESOLVING,Test drug 210mg,D,Completed,Y,1
2009_0062-0137,1,54,84,Abnormal amount of air that is exhaled by following a maxima inhalation,Vital capacity abnormal,Investigations,N,MILD,N,RECOVERING/RESOLVING,Test drug 210mg,D,Completed,Y,1
2009_0062-0137,2,72,84,Stiffness in the heart preventing the heart chambers to properly fil with blood,Restrictive cardiomyopathy,Cardiac disorders,N,MILD,N,RECOVERING/RESOLVING,Test drug 210mg,D,Completed,Y,1
2009_0062-0138,1,2,11,Vaginal infection,Vaginal infection,Infections and infestations,Y,MODERATE,N,RECOVERED/RESOLVED,Test drug 210mg,D,Completed,Y,1
2009_0062-0139,1,81,84,Infection of the eye,Eye infection,Infections and infestations,N,MILD,N,RECOVERING/RESOLVING,Test drug 210mg,D,Completed,Y,1
2009_0062-0140,1,69,84,Excessive sleepiness during the daytime,Hypersomnia,Nervous system disorders,N,MILD,Y,RECOVERING/RESOLVING,Test drug 210mg,D,Completed,Y,1
2009_0062-0141,1,28,84,Fear of light,Photophobia,Eye disorders,N,MILD,Y,RECOVERING/RESOLVING,Test drug 210mg,D,Completed,Y,1
2009_0062-0141,2,47,48,Abnormal build up of fluid in the lungs,Pulmonary edema,"Respiratory, thoracic and mediastina disorders",N,MILD,N,RECOVERED/RESOLVED,Test drug 210mg,D,Completed,Y,1
2009_0062-0142,1,40,84,Narrowing of the stomach,Gastric stenosis,Gastrointestinal disorders,N,MILD,N,RECOVERING/RESOLVING,Test drug 210mg,D,Completed,Y,1
2009_0062-0142,2,72,84,Problem of the retina (a multi-layered sensory tissue that lines th back of the eye responsible for sight),Retinopathy,Eye disorders,N,MILD,N,RECOVERING/RESOLVING,Test drug 210mg,D,Completed,Y,1
2009_0062-0142,3,73,84,Delay in orgasm (climax),Delayed orgasm,Psychiatric disorders,N,MILD,Y,RECOVERING/RESOLVING,Test drug 210mg,D,Completed,Y,1
2009_0062-0143,1,10,38,Bleeding from the lungs,Bronchopulmonary hemorrhage,"Respiratory, thoracic and mediastina disorders",N,MILD,N,RECOVERED/RESOLVED,Test drug 210mg,D,Completed,Y,1
2009_0062-0143,2,81,84,"Reaction that can occur during or following infusion of the drug The reaction may include fever, chills, rash, low blood pressure, and diff",Infusion related reaction,General disorders and administration site conditions,N,MILD,N,RECOVERING/RESOLVING,Test drug 210mg,D,Completed,Y,1
2009_0062-0144,1,21,84,Tearing or disruption of the ovarian tissue,Ovarian rupture,Reproductive system and breast disorders,N,MILD,N,RECOVERING/RESOLVING,Test drug 210mg,D,Completed,Y,1
2009_0062-0144,2,80,84,"Abnormal drowsiness or sluggishness, an unusual lack of energy",Lethargy,Nervous system disorders,N,MODERATE,Y,RECOVERING/RESOLVING,Test drug 210mg,D,Completed,Y,1
2009_0062-0145,1,8,29,Dehydration (when your body does not have as much water an fluid as it should),Dehydration,Metabolism and nutrition disorders,N,MILD,Y,RECOVERED/RESOLVED WITH SEQUELAE,Test drug 210mg,D,Completed,Y,1
2009_0062-0145,2,21,73,Exaggerated feeling of well being,Euphoria,Psychiatric disorders,N,MILD,Y,RECOVERED/RESOLVED,Test drug 210mg,D,Completed,Y,1
2009_0062-0146,1,18,61,Partial or complete blockage of the small and/or large bowel.  Ileu is a functional rather than actual blockage of the bowel.,Ileus,Gastrointestinal disorders,N,MILD,Y,RECOVERED/RESOLVED,Test drug 210mg,D,Completed,Y,1
2009_0062-0146,2,42,84,Slow heartbeat,Sinus bradycardia,Cardiac disorders,N,SEVERE,N,RECOVERING/RESOLVING,Test drug 210mg,D,Completed,Y,1
2009_0062-0146,3,77,84,Abnormal build up of fluid in the lungs,Pulmonary edema,"Respiratory, thoracic and mediastina disorders",N,MODERATE,N,RECOVERING/RESOLVING,Test drug 210mg,D,Completed,Y,1
2009_0062-0147,1,75,84,Muscle weakness of the whole body,Generalized muscle weakness,Musculoskeletal and connective tissu disorders,N,SEVERE,N,RECOVERING/RESOLVING,Test drug 210mg,D,Completed,Y,1
2009_0062-0148,1,42,84,Infection at lthe location of a medical device,Device related infection,Infections and infestations,N,MILD,N,RECOVERING/RESOLVING,Test drug 210mg,D,Completed,Y,1
2009_0062-0148,2,80,84,Constipation,Constipation,Gastrointestinal disorders,N,MILD,Y,RECOVERING/RESOLVING,Test drug 210mg,D,Completed,Y,1
2009_0062-0150,1,25,64,Leakage of the clear fluid (lymph) that travels through the lymphati vessels and carries cells that help fight infections and other disease,Lymph leakage,Vascular disorders,N,MILD,N,RECOVERED/RESOLVED,Test drug 210mg,D,Completed,Y,1
2009_0062-0150,2,60,79,Increased number of a type of white blood cell (lymphocyte,Lymphocyte count increased,Investigations,N,MODERATE,N,RECOVERED/RESOLVED,Test drug 210mg,D,Completed,Y,1
2009_0062-0151,1,42,84,Leakage from the vas deferens (the tube connecting the testes wit the urethra [the tube which connects the bladder to the outside of the bo,Vas deferens anastomotic leak,"Injury, poisoning and procedural complications",N,MODERATE,Y,RECOVERING/RESOLVING,Test drug 210mg,D,Completed,Y,1
2009_0062-0151,2,44,49,Fatigue or tiredness,Fatigue,General disorders and administration sit conditions,Y,MODERATE,Y,RECOVERED/RESOLVED,Test drug 210mg,D,Completed,Y,1
2009_0062-0153,1,32,84,Inflammation (swelling and redness) of the conjunctiva (th membrane that lines the eyelids and covers the exposed surface of the eyeball) c,Conjunctivitis infective,Infections and infestations,N,MILD,N,RECOVERING/RESOLVING,Test drug 210mg,D,Completed,Y,1
2009_0062-0153,2,73,84,Decreased blood level of corticotrophin (a hormone produced b the pituitary gland),Blood corticotrophin decreased,Investigations,N,SEVERE,Y,RECOVERING/RESOLVING,Test drug 210mg,D,Completed,Y,1
2009_0062-0154,1,40,84,Swelling in or around the eyelid,Periorbital edema,Skin and subcutaneous tissue disorders,N,MILD,N,RECOVERING/RESOLVING,Test drug 210mg,D,Completed,Y,1
2009_0062-0154,2,52,84,Inflammation (swelling and redness) of the arachnoid membran (one of the membranes that surround and protect the nerves of the central nerv,Arachnoiditis,Nervous system disorders,N,MODERATE,Y,RECOVERING/RESOLVING,Test drug 210mg,D,Completed,Y,1
2009_0062-0155,1,12,65,Abnormal level of growth hormone,Growth hormone abnorma,Investigations,N,MILD,Y,RECOVERED/RESOLVED,Test drug 210mg,D,Completed,Y,1
2009_0062-0155,2,30,37,"Collection of heart rhythm signs/symptoms that include: Sinu bradycardia (a slow heartbeat, Tachycardias (a fast heartbeat), Bradycardia-ta",Sick sinus syndrome,Cardiac disorders,N,MILD,N,RECOVERED/RESOLVED,Test drug 210mg,D,Completed,Y,1
2009_0062-0155,3,35,84,Shrinking of body fat,Fat atrophy,Skin and subcutaneous tissue disorders,Y,MODERATE,N,RECOVERING/RESOLVING,Test drug 210mg,D,Completed,Y,1
2009_0062-0155,4,71,84,Joint infection,Joint infection,Infections and infestations,N,MILD,N,RECOVERING/RESOLVING,Test drug 210mg,D,Completed,Y,1
2009_0062-0156,1,30,39,Acne,Rash acneiform,Skin and subcutaneous tissue disorders,N,MILD,N,RECOVERED/RESOLVED,Test drug 210mg,D,Completed,Y,1
2009_0062-0159,1,28,84,Abnormal amount of air that is exhaled by following a maxima inhalation,Vital capacity abnormal,Investigations,N,MILD,N,RECOVERING/RESOLVING,Test drug 280mg,E,Completed,Y,1
2009_0062-0159,2,48,84,Inflammation (swelling and redness) of the spinal cor,Myelitis,Nervous system disorders,N,MODERATE,Y,RECOVERING/RESOLVING,Test drug 280mg,E,Completed,Y,1
2009_0062-0162,1,10,84,Bleeding in the ovary,Ovarian hemorrhage,Reproductive system and breast disorders,Y,MILD,Y,RECOVERING/RESOLVING,Test drug 280mg,E,Completed,Y,1
2009_0062-0162,2,16,65,High blood pressure,Hypertension,Vascular disorders,N,MILD,N,RECOVERED/RESOLVED,Test drug 280mg,E,Completed,Y,1
2009_0062-0162,3,39,84,Swelling of the trunk of the body,Edema trunk,General disorders and administration sit conditions,Y,MILD,N,RECOVERING/RESOLVING,Test drug 280mg,E,Completed,Y,1
2009_0062-0163,1,39,84,Bleeding in the trachea (windpipe),Tracheal hemorrhage,"Injury, poisoning and procedura complications",N,MILD,Y,RECOVERING/RESOLVING,Test drug 280mg,E,Completed,Y,1
2009_0062-0163,2,71,84,Stroke caused by decreased blood flow to the brain,Ischemia cerebrovascular,Nervous system disorders,Y,MODERATE,N,RECOVERING/RESOLVING,Test drug 280mg,E,Completed,Y,1
2009_0062-0163,3,76,84,Broken bone in the spinal column,Spinal fracture,"Injury, poisoning and procedura complications",N,SEVERE,Y,RECOVERING/RESOLVING,Test drug 280mg,E,Completed,Y,1
2009_0062-0164,1,11,33,Bleeding in the voice box,Laryngeal hemorrhage,"Respiratory, thoracic and mediastina disorders",N,MILD,N,RECOVERED/RESOLVED,Test drug 280mg,E,Completed,Y,1
2009_0062-0164,2,39,44,Neck pain,Neck pain,Musculoskeletal and connective tissu disorders,N,MILD,N,RECOVERED/RESOLVED,Test drug 280mg,E,Completed,Y,1
2009_0062-0165,1,9,23,Taste changes,Dysgeusia,Nervous system disorders,N,MILD,N,RECOVERED/RESOLVED,Test drug 280mg,E,Completed,Y,1
2009_0062-0165,2,40,84,Damage to a blood vessel that carries blood from the heart durin surgery,Intraoperative arterial injury,"Injury, poisoning and procedura complications",N,MILD,N,RECOVERING/RESOLVING,Test drug 280mg,E,Completed,Y,1
2009_0062-0165,3,45,84,"Potentially life-threatening condition during a drug infusion which may cause low blood pressure, rash, fever, chills, difficulty breathing",Cytokine release syndrome,Immune system disorders,N,MODERATE,Y,RECOVERING/RESOLVING,Test drug 280mg,E,Completed,Y,1
2009_0062-0165,4,48,55,"Infection of the upper respiratory tract (nose, sinuses, throat, win pipe, and voice box)",Upper respiratory infection,Infections and infestations,Y,MILD,Y,RECOVERED/RESOLVED,Test drug 280mg,E,Completed,Y,1
2009_0062-0166,1,18,84,Brain infection,Encephalitis infection,Infections and infestations,N,MODERATE,N,RECOVERING/RESOLVING,Test drug 280mg,E,Completed,Y,1
2009_0062-0166,2,31,84,Bleeding in the vagina,Vaginal hemorrhage,Reproductive system and breast disorders,N,MILD,N,RECOVERING/RESOLVING,Test drug 280mg,E,Completed,Y,1
2009_0062-0166,3,59,84,Sudden decrease of kidney function,Acute kidney injury,Renal and urinary disorders,N,MILD,N,RECOVERING/RESOLVING,Test drug 280mg,E,Completed,Y,1
2009_0062-0167,1,26,30,Destruction of a person's own healthy body tissue by their ow immune system,Autoimmune disorder,Immune system disorders,N,MILD,Y,RECOVERED/RESOLVED,Test drug 280mg,E,Completed,Y,1
2009_0062-0167,2,63,84,Brain infection,Encephalitis infection,Infections and infestations,N,MILD,Y,RECOVERING/RESOLVING,Test drug 280mg,E,Completed,Y,1
2009_0062-0167,3,66,84,"Noticible changes in a persons personality, behavior, and thinking",Personality change,Psychiatric disorders,N,MILD,N,RECOVERING/RESOLVING,Test drug 280mg,E,Completed,Y,1
2009_0062-0168,1,48,84,Decreased blood level of phosphate,Hypophosphatemia,Metabolism and nutrition disorders,N,MODERATE,N,RECOVERING/RESOLVING,Test drug 280mg,E,Completed,Y,1
2009_0062-0170,1,20,84,Infection of the lining of the abdominal cavit,Peritoneal infection,Infections and infestations,N,MODERATE,N,RECOVERING/RESOLVING,Test drug 280mg,E,Completed,Y,1
2009_0062-0170,2,59,60,Infection of the tissue that lines body parts (mucosa,Mucosal infection,Infections and infestations,N,MILD,N,RECOVERED/RESOLVED,Test drug 280mg,E,Completed,Y,1
2009_0062-0170,3,72,84,Infection of the finger or toenails,Nail infection,Infections and infestations,N,MILD,Y,RECOVERING/RESOLVING,Test drug 280mg,E,Completed,Y,1
2009_0062-0170,4,83,84,Destruction or death of tissue of the brain and/or spinal cor,Central nervous system necrosis,Nervous system disorders,N,MODERATE,Y,RECOVERING/RESOLVING,Test drug 280mg,E,Completed,Y,1
2009_0062-0171,1,9,18,Infection of the soft tissues around the eye socke,Periorbital infection,Infections and infestations,N,MILD,N,RECOVERED/RESOLVED,Test drug 280mg,E,Completed,Y,1
2009_0062-0172,1,68,72,Major change in thinking patterns,Cognitive disturbance,Nervous system disorders,N,MILD,N,RECOVERED/RESOLVED,Test drug 280mg,E,Completed,Y,1
2009_0062-0173,1,70,84,Acne,Rash acneiform,Skin and subcutaneous tissue disorders,N,MODERATE,Y,RECOVERING/RESOLVING,Test drug 280mg,E,Completed,Y,1
2009_0062-0174,1,1,38,Swelling in the brain,Edema cerebral,Nervous system disorders,Y,MODERATE,N,RECOVERED/RESOLVED,Test drug 280mg,E,Completed,Y,1
2009_0062-0174,2,38,54,Joint stiffness,Joint range of motion decreased,Musculoskeletal and connective tissu disorders,N,MILD,Y,RECOVERED/RESOLVED,Test drug 280mg,E,Completed,Y,1
2009_0062-0175,1,77,84,"bleeding in hemorrhoids (swollen or irritated blood vessels in th anus and rectum, also known as piles)",Hemorrhoidal hemorrhage,Gastrointestinal disorders,N,MODERATE,N,RECOVERING/RESOLVING,Test drug 280mg,E,Completed,Y,1
2009_0062-0176,1,79,84,Death of infant within 28 days of birth,Death neonatal,General disorders and administration sit conditions,N,MODERATE,N,RECOVERING/RESOLVING,Test drug 280mg,E,Completed,Y,1
2009_0062-0178,1,28,84,Hole between the stomach and another organ,Gastric fistula,Gastrointestinal disorders,N,MILD,Y,RECOVERING/RESOLVING,Test drug 280mg,E,Completed,Y,1
2009_0062-0180,1,15,84,Dehydration (when your body does not have as much water an fluid as it should),Dehydration,Metabolism and nutrition disorders,N,MILD,N,RECOVERING/RESOLVING,Test drug 280mg,E,Completed,Y,1
2009_0062-0180,2,47,84,Growth greater than expected for age,Growth accelerated,Endocrine disorders,N,MILD,N,RECOVERING/RESOLVING,Test drug 280mg,E,Completed,Y,1
2009_0062-0181,1,38,62,Hole in the bladder,Bladder perforation,Renal and urinary disorders,N,MODERATE,N,RECOVERED/RESOLVED,Test drug 280mg,E,Completed,Y,1
2009_0062-0181,2,66,84,Sneezing,Sneezing,"Respiratory, thoracic and mediastina disorders",N,SEVERE,N,RECOVERING/RESOLVING,Test drug 280mg,E,Completed,Y,1
2009_0062-0182,1,6,14,Decreased blood level of corticotrophin (a hormone produced b the pituitary gland),Blood corticotrophin decreased,Investigations,N,MILD,Y,RECOVERED/RESOLVED,Test drug 280mg,E,Completed,Y,1
2009_0062-0182,2,20,84,Abnormal brain function,Encephalopathy,Nervous system disorders,N,MILD,Y,RECOVERING/RESOLVING,Test drug 280mg,E,Completed,Y,1
2009_0062-0182,3,34,52,Death of unknown cause,Death NOS,General disorders and administration sit conditions,N,MILD,N,RECOVERED/RESOLVED,Test drug 280mg,E,Completed,Y,1
2009_0062-0182,4,55,84,"Allergic reaction to certain medications, injected proteins, o antisera (blood product) used to treat certain medical conditions (such as a",Serum sickness,Immune system disorders,N,MILD,Y,RECOVERING/RESOLVING,Test drug 280mg,E,Completed,Y,1
2009_0062-0184,1,13,84,Problem characterized by signs that resemble Cushing's disease o syndrome due to too much steroids,Cushingoid,Endocrine disorders,N,MILD,Y,RECOVERING/RESOLVING,Test drug 280mg,E,Completed,Y,1
2009_0062-0184,2,67,84,Stroke that comes and goes quickly (a mini stroke) with no lastin effects.  They can be a warning of future stroke.,Transient ischemic attacks,Nervous system disorders,N,MILD,Y,RECOVERING/RESOLVING,Test drug 280mg,E,Completed,Y,1
2009_0062-0185,1,38,84,Swelling of the trunk of the body,Edema trunk,General disorders and administration sit conditions,N,MILD,N,RECOVERING/RESOLVING,Test drug 280mg,E,Completed,Y,1
2009_0062-0186,1,81,84,"Potentially life-threatening condition during a drug infusion which may cause low blood pressure, rash, fever, chills, difficulty breathing",Cytokine release syndrome,Immune system disorders,N,MILD,N,RECOVERING/RESOLVING,Test drug 280mg,E,Completed,Y,1
2009_0062-0187,1,17,84,"Abnormal function of the nerve that serves the gut, heart, and voic box",Vagus nerve disorder,Nervous system disorders,N,MILD,N,RECOVERING/RESOLVING,Test drug 280mg,E,Completed,Y,1
2009_0062-0187,2,38,48,Leakage from the vagina due to breakdown of a anastomosi (surgical connection between two body structures),Vaginal anastomotic leak,"Injury, poisoning and procedura complications",N,MILD,Y,RECOVERED/RESOLVED,Test drug 280mg,E,Completed,Y,1
2009_0062-0187,3,63,84,bleeding in the anal region,Anal hemorrhage,Gastrointestinal disorders,N,MILD,Y,RECOVERING/RESOLVING,Test drug 280mg,E,Completed,Y,1
2009_0062-0188,1,22,84,Increased number of a type of white blood cell (lymphocyte,Lymphocyte count increased,Investigations,N,MILD,Y,RECOVERING/RESOLVING,Test drug 280mg,E,Completed,Y,1
2009_0062-0188,2,26,84,Stroke that comes and goes quickly (a mini stroke) with no lastin effects.  They can be a warning of future stroke.,Transient ischemic attacks,Nervous system disorders,N,MILD,N,RECOVERING/RESOLVING,Test drug 280mg,E,Completed,Y,1
2009_0062-0189,1,16,84,"Collection of heart rhythm signs/symptoms that include: Sinu bradycardia (a slow heartbeat, Tachycardias (a fast heartbeat), Bradycardia-ta",Sick sinus syndrome,Cardiac disorders,N,MODERATE,Y,RECOVERING/RESOLVING,Test drug 280mg,E,Completed,Y,1
2009_0062-0191,1,16,84,Infection at lthe location of a medical device,Device related infection,Infections and infestations,Y,MODERATE,N,RECOVERING/RESOLVING,Test drug 280mg,E,Completed,Y,1
2009_0062-0191,2,36,84,Bone infection,Bone infection,Infections and infestations,N,MILD,N,RECOVERING/RESOLVING,Test drug 280mg,E,Completed,Y,1
2009_0062-0192,1,77,84,Infection of the tissue that lines body parts (mucosa,Mucosal infection,Infections and infestations,N,MILD,N,RECOVERING/RESOLVING,Test drug 280mg,E,Completed,Y,1
2009_0062-0192,2,79,84,Constipation,Constipation,Gastrointestinal disorders,N,SEVERE,N,RECOVERING/RESOLVING,Test drug 280mg,E,Completed,Y,1
2009_0062-0193,1,10,16,"Rapid, jerky involuntary movements of the eye",Nystagmus,Nervous system disorders,N,MILD,N,RECOVERED/RESOLVED,Test drug 280mg,E,Completed,Y,1
2009_0062-0193,2,48,84,Cavities or tooth decay,Dental caries,Gastrointestinal disorders,Y,MILD,Y,RECOVERING/RESOLVING,Test drug 280mg,E,Completed,Y,1
2009_0062-0193,3,63,84,Inflammation (swelling and redness) of the conjunctiva (th membrane that lines the eyelids and covers the exposed surface of the eyeball) c,Conjunctivitis infective,Infections and infestations,N,SEVERE,Y,RECOVERING/RESOLVING,Test drug 280mg,E,Completed,Y,1
2009_0062-0193,4,82,84,Problems related to ejaculation,Ejaculation disorder,Reproductive system and breast disorders,N,SEVERE,Y,RECOVERING/RESOLVING,Test drug 280mg,E,Completed,Y,1
2009_0062-0194,1,48,84,Abnormal hole between the lower breathing tube and the bod cavity that surrounds the lungs,Bronchopleural fistula,"Respiratory, thoracic and mediastina disorders",N,MILD,N,RECOVERING/RESOLVING,Test drug 280mg,E,Completed,Y,1
2009_0062-0194,2,68,84,Infection of the eye,Eye infection,Infections and infestations,N,MILD,Y,RECOVERING/RESOLVING,Test drug 280mg,E,Completed,Y,1
2009_0062-0195,1,22,84,Inflammation (swelling and redness) of the esophagus (gullet or the tube that goes from mouth to stomach through which food passes),Esophagitis,Gastrointestinal disorders,N,MILD,N,RECOVERING/RESOLVING,Test drug 280mg,E,Completed,Y,1
2009_0062-0195,2,63,84,Hole between the stomach and another organ,Gastric fistula,Gastrointestinal disorders,N,MILD,N,RECOVERING/RESOLVING,Test drug 280mg,E,Completed,Y,1
2009_0062-0196,1,16,30,Liver failure,Hepatic failure,Hepatobiliary disorders,N,MILD,N,RECOVERED/RESOLVED,Test drug 280mg,E,Completed,Y,1
2009_0062-0196,2,30,84,Infection of skeletal muscles,Infective myositis,Infections and infestations,N,MODERATE,Y,RECOVERING/RESOLVING,Test drug 280mg,E,Completed,Y,1
2009_0062-0196,3,36,84,Increased number of white blood cells (leukocytes) in the peripher blood,Leukocytosis,Blood and lymphatic system disorders,N,MILD,N,RECOVERING/RESOLVING,Test drug 280mg,E,Completed,Y,1
2009_0062-0197,1,81,83,Muscle weakness of the left side of the body,Muscle weakness left-sided,Musculoskeletal and connective tissu disorders,N,MILD,N,RECOVERED/RESOLVED WITH SEQUELAE,Test drug 280mg,E,Completed,Y,1
2009_0062-0198,1,5,72,Leg and/or arm pain,Pain in extremity,Musculoskeletal and connective tissu disorders,N,MILD,Y,RECOVERED/RESOLVED WITH SEQUELAE,Test drug 280mg,E,Completed,Y,1